PACKET_ID,TIME_MS,PRESS_HPA,TEMP_C,BARO_ALT,VERT_VEL,AX,AY,AZ,GX,GY,GZ,GPS_FIX,GPS_LAT,GPS_LON,GPS_ALT,GPS_SATS,APOGEE_TRIGGERED,RSSI,SNR
16800,425506,1011.89,35.78,0.67,0.89,-1.92,-0.41,1.23,0.05,2.42,23.59,0,0.0,0.0,0.0,0,0,-1,0.0
16820,426006,1011.88,35.78,0.73,0.99,-1.95,-0.4,1.2,1.03,3.09,21.21,0,0.0,0.0,0.0,0,0,-1,0.0
16840,426506,1011.86,35.79,0.89,0.82,-1.87,-0.38,1.23,1.21,1.93,27.43,0,0.0,0.0,0.0,0,0,-1,0.0
16860,427006,1011.85,35.79,1.01,1.11,-1.79,-0.33,1.2,-1.53,-2.95,-49.77,0,0.0,0.0,0.0,0,0,-1,0.0
16880,427506,1011.86,35.79,0.91,1.03,-1.91,-0.38,1.18,0.85,3.27,27.24,0,0.0,0.0,0.0,0,0,-1,0.0
16900,428006,1011.86,35.8,0.93,0.95,-1.89,-0.38,1.23,-0.62,-0.63,-12.33,0,0.0,0.0,0.0,0,0,-1,0.0
16920,428506,1011.87,35.81,0.79,0.84,-1.89,-0.38,1.19,0.05,-0.39,-0.44,0,0.0,0.0,0.0,0,0,-1,0.0
16940,429006,1011.89,35.81,0.67,0.69,-1.86,-0.38,1.25,-0.25,-0.45,-16.84,0,0.0,0.0,0.0,0,0,-1,0.0
16960,429506,1011.9,35.82,0.57,0.81,-1.86,-0.33,1.18,-0.25,1.62,13.77,0,0.0,0.0,0.0,0,0,-1,0.0
16980,430006,1011.86,35.82,0.91,0.84,-1.85,-0.34,1.16,-0.37,0.22,-16.48,0,0.0,0.0,0.0,0,0,-1,0.0
17000,430506,1011.88,35.82,0.74,0.91,-1.8,-0.32,1.22,-0.25,1.2,3.95,0,0.0,0.0,0.0,0,0,-1,0.0
17020,431006,1011.89,35.83,0.67,0.76,-1.83,-0.34,1.17,-0.25,1.2,-0.38,0,0.0,0.0,0.0,0,0,-1,0.0
17040,431506,1011.87,35.83,0.78,0.81,-1.81,-0.33,1.19,0.05,0.4,0.11,0,0.0,0.0,0.0,0,0,-1,0.0
17060,432006,1011.87,35.84,0.8,1.03,-1.82,-0.35,1.18,-0.49,1.14,-1.84,0,0.0,0.0,0.0,0,0,-1,0.0
17080,432506,1011.89,35.84,0.69,0.93,-1.79,-0.33,1.2,-0.07,0.89,2.12,0,0.0,0.0,0.0,0,0,-1,0.0
17100,433006,1011.86,35.84,0.91,0.96,-2.25,-0.72,1.23,-0.98,-0.39,-27.02,0,0.0,0.0,0.0,0,0,-1,0.0
17120,433506,1011.85,35.84,1.01,1.29,-2.31,-0.88,1.25,0.12,-0.51,-8.12,0,0.0,0.0,0.0,0,0,-1,0.0
17140,434006,1011.86,35.85,0.89,1.11,-2.34,-0.98,1.26,0.05,1.68,15.66,0,0.0,0.0,0.0,0,0,-1,0.0
17160,434506,1011.84,35.86,1.09,1.18,-2.34,-1.0,1.28,-2.08,-0.63,-24.04,0,0.0,0.0,0.0,0,0,-1,0.0
17180,435006,1011.87,35.86,0.86,1.22,-2.36,-1.05,1.24,-0.13,-0.33,-13.91,0,0.0,0.0,0.0,0,0,-1,0.0
17200,435506,1011.88,35.86,0.7,1.16,-2.33,-0.93,1.26,-0.07,-0.88,-24.22,0,0.0,0.0,0.0,0,0,-1,0.0
17220,436006,1011.87,35.87,0.81,1.05,-2.36,-1.15,1.28,-0.55,-1.3,-38.98,0,0.0,0.0,0.0,0,0,-1,0.0
17240,436506,1011.86,35.87,0.89,1.49,-2.37,-1.12,1.26,-0.55,-0.39,-16.78,0,0.0,0.0,0.0,0,0,-1,0.0
17260,437006,1011.86,35.87,0.87,1.09,-2.4,-1.28,1.26,-1.35,1.44,-2.57,0,0.0,0.0,0.0,0,0,-1,0.0
17280,437506,1011.89,35.88,0.63,0.81,-2.34,-1.0,1.24,-0.43,0.4,-5.68,0,0.0,0.0,0.0,0,0,-1,0.0
17300,438006,1011.86,35.88,0.89,1.46,-2.3,-0.87,1.24,-0.13,1.75,13.1,0,0.0,0.0,0.0,0,0,-1,0.0
17320,438506,1011.86,35.88,0.9,1.17,-2.32,-0.93,1.24,1.64,3.82,67.61,0,0.0,0.0,0.0,0,0,-1,0.0
17340,439006,1011.89,35.89,0.65,0.99,-2.35,-1.16,1.19,-0.01,-0.75,-16.84,0,0.0,0.0,0.0,0,0,-1,0.0
17360,439506,1011.85,35.9,0.95,1.06,-2.38,-1.21,1.24,-0.01,0.22,-10.99,0,0.0,0.0,0.0,0,0,-1,0.0
17380,440006,1011.88,35.9,0.74,1.27,-2.38,-1.19,1.25,-0.19,0.71,-3.3,0,0.0,0.0,0.0,0,0,-1,0.0
17400,440506,1011.84,35.89,1.11,1.26,-2.37,-1.21,1.26,-0.13,0.4,-5.13,0,0.0,0.0,0.0,0,0,-1,0.0
17420,441006,1011.85,35.9,1.01,1.38,-2.41,-1.2,1.31,0.05,1.56,0.42,0,0.0,0.0,0.0,0,0,-1,0.0
17440,441506,1011.89,35.91,0.68,1.12,-2.33,-1.25,1.29,-0.37,-1.18,0.05,0,0.0,0.0,0.0,0,0,-1,0.0
17460,442006,1011.86,35.91,0.87,0.99,-2.37,-1.23,1.25,-0.25,0.53,-1.35,0,0.0,0.0,0.0,0,0,-1,0.0
17480,442506,1011.91,35.91,0.49,1.06,-2.34,-1.25,1.25,-0.01,1.01,-4.52,0,0.0,0.0,0.0,0,0,-1,0.0
17500,443006,1011.88,35.91,0.69,1.18,-2.37,-1.2,1.25,-0.13,2.05,30.84,0,0.0,0.0,0.0,0,0,-1,0.0
17520,443506,1011.87,35.92,0.79,1.08,-2.38,-1.32,1.26,-0.25,0.4,-8.61,0,0.0,0.0,0.0,0,0,-1,0.0
17540,444006,1011.85,35.92,1.02,1.63,-2.3,-1.13,1.28,1.27,-0.33,-16.66,0,0.0,0.0,0.0,0,0,-1,0.0
17560,444506,1011.87,35.92,0.8,0.97,-2.38,-1.2,1.26,-0.25,0.83,1.51,0,0.0,0.0,0.0,0,0,-1,0.0
17580,445006,1011.88,35.93,0.73,0.99,-2.38,-1.22,1.24,-0.01,0.77,3.34,0,0.0,0.0,0.0,0,0,-1,0.0
17600,445506,1011.85,35.93,1.0,1.25,-2.38,-1.24,1.24,0.05,0.59,-0.93,0,0.0,0.0,0.0,0,0,-1,0.0
17620,446006,1011.86,35.93,0.88,1.16,-2.37,-1.18,1.24,-0.01,0.71,-0.68,0,0.0,0.0,0.0,0,0,-1,0.0
17640,446506,1011.86,35.93,0.92,1.09,-2.36,-1.19,1.23,0.48,0.95,6.02,0,0.0,0.0,0.0,0,0,-1,0.0
17660,447006,1011.87,35.93,0.8,1.08,-2.38,-1.21,1.25,-1.35,1.07,8.1,0,0.0,0.0,0.0,0,0,-1,0.0
17680,447506,1011.84,35.94,1.05,1.5,-2.36,-1.24,1.23,-0.68,0.65,4.2,0,0.0,0.0,0.0,0,0,-1,0.0
17700,448006,1011.86,35.94,0.91,1.12,-2.34,-1.21,1.25,-2.63,0.77,-1.35,0,0.0,0.0,0.0,0,0,-1,0.0
17720,448506,1011.87,35.94,0.79,1.03,-2.4,-1.16,1.21,-0.43,1.62,30.05,0,0.0,0.0,0.0,0,0,-1,0.0
17740,449006,1011.82,35.94,1.27,1.46,-2.37,-1.15,1.27,-0.37,0.89,1.57,0,0.0,0.0,0.0,0,0,-1,0.0
17760,449506,1011.85,35.95,0.99,1.14,-2.36,-1.33,1.25,-0.74,0.89,1.82,0,0.0,0.0,0.0,0,0,-1,0.0
17780,450006,1011.86,35.95,0.89,1.02,-2.38,-1.32,1.23,0.66,1.01,9.81,0,0.0,0.0,0.0,0,0,-1,0.0
17800,450506,1011.86,35.95,0.93,1.36,-2.32,-0.91,1.23,-2.99,5.83,72.06,0,0.0,0.0,0.0,0,0,-1,0.0
17820,451006,1011.87,35.96,0.8,1.09,-2.35,-0.97,1.24,-0.07,0.89,10.11,0,0.0,0.0,0.0,0,0,-1,0.0
17840,451506,1011.84,35.96,1.03,1.11,-2.3,-0.87,1.22,-0.31,0.89,-6.48,0,0.0,0.0,0.0,0,0,-1,0.0
17860,452006,1011.89,35.96,0.68,0.98,-2.33,-0.94,1.22,-0.19,0.83,-0.38,0,0.0,0.0,0.0,0,0,-1,0.0
17880,452506,1011.83,35.96,1.14,1.18,-2.34,-0.95,1.22,-0.25,0.59,-3.18,0,0.0,0.0,0.0,0,0,-1,0.0
17900,453006,1011.85,35.97,0.98,1.04,-2.34,-0.96,1.22,-0.07,0.77,3.4,0,0.0,0.0,0.0,0,0,-1,0.0
17920,453506,1011.87,35.97,0.81,1.02,-2.35,-0.97,1.22,0.18,0.77,-9.46,0,0.0,0.0,0.0,0,0,-1,0.0
17940,454006,1011.86,35.97,0.89,0.92,-2.34,-0.99,1.23,0.3,0.89,5.78,0,0.0,0.0,0.0,0,0,-1,0.0
17960,454506,1011.87,35.98,0.83,1.13,-2.31,-0.91,1.23,0.3,0.34,-3.18,0,0.0,0.0,0.0,0,0,-1,0.0
17980,455006,1011.87,35.98,0.8,0.97,-2.33,-0.94,1.23,-0.43,0.89,2.67,0,0.0,0.0,0.0,0,0,-1,0.0
18000,455506,1011.9,35.98,0.54,0.87,-2.33,-0.95,1.22,-0.25,0.83,13.83,0,0.0,0.0,0.0,0,0,-1,0.0
18020,456006,1011.88,35.98,0.75,1.13,-2.33,-0.95,1.23,0.05,0.53,-11.6,0,0.0,0.0,0.0,0,0,-1,0.0
18040,456506,1011.89,35.99,0.66,0.98,-2.37,-0.97,1.22,0.36,0.53,-13.55,0,0.0,0.0,0.0,0,0,-1,0.0
18060,457006,1011.86,36.0,0.89,1.22,-2.37,-1.31,1.21,28.16,2.72,-106.11,0,0.0,0.0,0.0,0,0,-1,0.0
18080,457506,1011.84,35.99,1.05,1.3,-2.26,-1.69,1.27,3.9,3.76,3.34,0,0.0,0.0,0.0,0,0,-1,0.0
18100,458006,1011.89,36.01,0.69,1.07,-2.15,-1.88,1.29,0.85,1.32,-0.8,0,0.0,0.0,0.0,0,0,-1,0.0
18120,458506,1011.87,36.0,0.97,1.22,-2.26,-1.69,1.27,-2.87,-1.0,7.37,0,0.0,0.0,0.0,0,0,-1,0.0
18140,459006,1011.9,36.01,0.61,1.18,-2.31,-1.62,1.26,-2.75,-2.58,-33.61,0,0.0,0.0,0.0,0,0,-1,0.0
18160,459506,1011.89,36.01,0.69,1.28,-2.18,-1.85,1.3,-2.08,-3.07,-39.65,0,0.0,0.0,0.0,0,0,-1,0.0
18180,460006,1011.86,36.01,0.9,1.49,-2.09,-1.92,1.28,-0.43,-0.21,-12.57,0,0.0,0.0,0.0,0,0,-1,0.0
18200,460506,1011.86,36.01,0.91,1.35,-2.1,-1.91,1.29,0.42,0.59,-6.23,0,0.0,0.0,0.0,0,0,-1,0.0
18220,461006,1011.83,36.01,1.14,1.36,-2.03,-2.0,1.28,-0.92,1.2,5.84,0,0.0,0.0,0.0,0,0,-1,0.0
18240,461506,1011.85,36.01,0.97,1.17,-2.01,-1.99,1.28,0.05,1.38,10.35,0,0.0,0.0,0.0,0,0,-1,0.0
18260,462006,1011.86,36.02,0.89,1.34,-2.03,-1.98,1.28,-0.31,0.34,-3.06,0,0.0,0.0,0.0,0,0,-1,0.0
18280,462506,1011.85,36.02,0.96,1.4,-2.06,-1.95,1.26,0.3,1.87,18.34,0,0.0,0.0,0.0,0,0,-1,0.0
18300,463006,1011.86,36.02,0.87,1.25,-2.07,-1.93,1.28,-0.31,0.28,-1.05,0,0.0,0.0,0.0,0,0,-1,0.0
18320,463506,1011.84,36.03,1.07,1.49,-2.03,-1.98,1.27,-0.19,0.28,-8.0,0,0.0,0.0,0.0,0,0,-1,0.0
18340,464006,1011.85,36.02,0.99,1.26,-2.01,-1.99,1.28,-0.13,0.65,0.54,0,0.0,0.0,0.0,0,0,-1,0.0
18360,464506,1011.84,36.03,1.04,1.18,-2.02,-1.99,1.27,-0.13,0.89,4.87,0,0.0,0.0,0.0,0,0,-1,0.0
18380,465006,1011.84,36.03,1.03,1.43,-2.02,-1.98,1.28,-0.13,0.46,-2.27,0,0.0,0.0,0.0,0,0,-1,0.0
18400,465506,1011.86,36.02,0.89,1.34,-2.02,-1.99,1.28,-0.37,0.46,-0.44,0,0.0,0.0,0.0,0,0,-1,0.0
18420,466006,1011.87,36.03,0.8,1.14,-2.02,-1.99,1.25,-0.01,0.22,-6.48,0,0.0,0.0,0.0,0,0,-1,0.0
18440,466506,1011.87,36.03,0.82,1.15,-2.0,-1.99,1.24,0.73,1.38,3.28,0,0.0,0.0,0.0,0,0,-1,0.0
18460,467006,1011.89,36.03,0.67,1.21,-2.03,-2.0,1.28,1.34,1.62,-6.17,0,0.0,0.0,0.0,0,0,-1,0.0
18480,467506,1011.9,36.04,0.59,1.04,-2.07,-1.94,1.32,0.05,0.65,-5.07,0,0.0,0.0,0.0,0,0,-1,0.0
18500,468006,1011.87,36.04,0.8,1.33,-2.06,-1.96,1.23,0.91,1.87,5.11,0,0.0,0.0,0.0,0,0,-1,0.0
18520,468506,1011.87,36.04,0.83,1.35,-2.07,-1.92,1.27,-0.19,1.38,10.78,0,0.0,0.0,0.0,0,0,-1,0.0
18540,469006,1011.84,36.04,1.07,1.47,-2.03,-1.98,1.3,-0.55,-0.75,-26.72,0,0.0,0.0,0.0,0,0,-1,0.0
18560,469506,1011.86,36.04,0.92,1.47,-1.92,-2.07,1.28,0.3,0.46,-14.95,0,0.0,0.0,0.0,0,0,-1,0.0
18580,470006,1011.88,36.05,0.76,1.07,-2.07,-1.93,1.27,-0.19,0.16,-7.69,0,0.0,0.0,0.0,0,0,-1,0.0
18600,470506,1011.86,36.04,0.89,1.31,-1.99,-2.01,1.3,-0.07,1.14,6.09,0,0.0,0.0,0.0,0,0,-1,0.0
18620,471006,1011.85,36.05,0.97,1.48,-1.98,-2.03,1.3,-0.43,0.1,-8.06,0,0.0,0.0,0.0,0,0,-1,0.0
18640,471506,1011.87,36.04,0.79,1.43,-2.0,-2.01,1.27,-0.13,1.44,19.74,0,0.0,0.0,0.0,0,0,-1,0.0
18660,472006,1011.83,36.05,1.12,1.26,-2.12,-1.9,1.29,-0.49,0.28,-3.3,0,0.0,0.0,0.0,0,0,-1,0.0
18680,472506,1011.85,36.05,1.02,1.39,-2.18,-1.82,1.28,-0.37,0.34,-1.17,0,0.0,0.0,0.0,0,0,-1,0.0
18700,473006,1011.83,36.04,1.12,1.34,-2.18,-1.82,1.26,-0.13,0.77,4.32,0,0.0,0.0,0.0,0,0,-1,0.0
18720,473506,1011.87,36.05,0.82,1.18,-2.2,-1.8,1.28,-0.01,0.4,-2.69,0,0.0,0.0,0.0,0,0,-1,0.0
18740,474006,1011.88,36.05,0.71,1.29,-2.21,-1.77,1.29,0.36,1.07,6.76,0,0.0,0.0,0.0,0,0,-1,0.0
18760,474506,1011.88,36.05,0.74,1.34,-2.13,-1.89,1.27,-0.07,1.62,19.07,0,0.0,0.0,0.0,0,0,-1,0.0
18780,475006,1011.87,36.06,0.78,1.27,-2.18,-1.83,1.28,-0.43,0.4,-0.74,0,0.0,0.0,0.0,0,0,-1,0.0
18800,475506,1011.85,36.06,1.02,1.49,-2.14,-1.85,1.26,-0.37,0.16,-0.56,0,0.0,0.0,0.0,0,0,-1,0.0
18820,476006,1011.89,36.06,0.66,1.28,-2.17,-1.84,1.26,-0.43,0.46,-1.54,0,0.0,0.0,0.0,0,0,-1,0.0
18840,476506,1011.85,36.06,1.01,1.15,-2.16,-1.84,1.28,0.48,1.01,1.94,0,0.0,0.0,0.0,0,0,-1,0.0
18860,477006,1011.86,36.06,0.92,1.21,-2.15,-1.86,1.28,0.3,0.71,-4.34,0,0.0,0.0,0.0,0,0,-1,0.0
18880,477506,1011.87,36.06,0.82,1.25,-2.16,-1.85,1.29,-0.07,0.59,-0.13,0,0.0,0.0,0.0,0,0,-1,0.0
18900,478006,1011.88,36.06,0.7,1.29,-2.17,-1.84,1.27,-0.01,0.59,-1.35,0,0.0,0.0,0.0,0,0,-1,0.0
18920,478506,1011.86,36.06,0.87,1.21,-2.19,-1.8,1.28,-0.25,0.28,-5.74,0,0.0,0.0,0.0,0,0,-1,0.0
18940,479006,1011.84,36.07,1.08,1.42,-2.17,-1.84,1.27,-0.13,0.4,-3.18,0,0.0,0.0,0.0,0,0,-1,0.0
18960,479506,1011.86,36.07,0.94,1.27,-2.17,-1.83,1.27,-0.49,0.16,-4.46,0,0.0,0.0,0.0,0,0,-1,0.0
18980,480006,1011.84,36.07,1.03,1.32,-2.23,-1.79,1.27,-0.37,0.89,-8.98,0,0.0,0.0,0.0,0,0,-1,0.0
19000,480506,1011.87,36.07,0.79,1.08,-1.88,-2.06,1.27,-4.4,3.21,-69.58,0,0.0,0.0,0.0,0,0,-1,0.0
19020,481006,1011.84,36.07,1.03,1.28,-1.75,-2.15,1.26,0.54,0.59,6.45,0,0.0,0.0,0.0,0,0,-1,0.0
19040,481506,1011.87,36.08,0.85,1.46,-1.7,-2.15,1.29,-0.25,1.56,-4.95,0,0.0,0.0,0.0,0,0,-1,0.0
19060,482006,1011.9,36.08,0.56,1.15,-2.28,-1.65,1.27,-6.65,-1.43,73.22,0,0.0,0.0,0.0,0,0,-1,0.0
19080,482506,1011.88,36.08,0.76,1.1,-2.37,-0.94,1.21,-9.64,14.43,130.84,0,0.0,0.0,0.0,0,0,-1,0.0
19100,483006,1011.84,36.07,1.04,1.16,-1.84,-0.35,1.18,1.88,1.44,44.62,0,0.0,0.0,0.0,0,0,-1,0.0
19120,483506,1011.85,36.07,0.96,1.04,-1.33,-0.25,1.18,0.6,2.42,31.82,0,0.0,0.0,0.0,0,0,-1,0.0
19140,484006,1011.85,36.08,0.96,0.66,-0.88,-0.33,1.18,6.15,14.12,98.65,0,0.0,0.0,0.0,0,0,-1,0.0
19160,484506,1011.88,36.08,0.9,0.66,-0.57,-0.56,1.18,-0.25,1.81,4.62,0,0.0,0.0,0.0,0,0,-1,0.0
19180,485006,1011.9,36.08,0.57,0.73,-0.57,-0.63,1.18,-0.25,0.65,3.34,0,0.0,0.0,0.0,0,0,-1,0.0
19200,485506,1011.82,36.09,1.27,1.16,-0.56,-0.65,1.19,-0.68,0.77,2.55,0,0.0,0.0,0.0,0,0,-1,0.0
19220,486006,1011.85,36.09,1.01,1.0,-0.55,-0.65,1.18,-0.68,0.53,-1.29,0,0.0,0.0,0.0,0,0,-1,0.0
19240,486506,1011.9,36.1,0.57,0.67,-0.57,-0.64,1.18,-0.01,0.59,-1.54,0,0.0,0.0,0.0,0,0,-1,0.0
19260,487006,1011.86,36.1,0.89,0.93,-0.56,-0.64,1.21,-0.43,0.53,-1.17,0,0.0,0.0,0.0,0,0,-1,0.0
19280,487506,1011.84,36.11,1.06,0.85,-0.58,-0.64,1.18,0.18,0.71,1.33,0,0.0,0.0,0.0,0,0,-1,0.0
19300,488006,1011.86,36.11,0.88,0.82,-0.57,-0.64,1.18,0.73,1.32,-0.8,0,0.0,0.0,0.0,0,0,-1,0.0
19320,488506,1011.85,36.12,1.01,1.01,-0.55,-0.65,1.19,-0.43,0.46,-1.11,0,0.0,0.0,0.0,0,0,-1,0.0
19340,489006,1011.84,36.12,1.07,1.11,-0.56,-0.64,1.19,-0.55,-0.33,-15.07,0,0.0,0.0,0.0,0,0,-1,0.0
19360,489506,1011.84,36.13,1.04,1.0,-0.53,-0.66,1.18,0.48,-2.46,15.6,0,0.0,0.0,0.0,0,0,-1,0.0
19380,490006,1011.88,36.13,0.7,0.86,-0.53,-0.69,1.19,-1.41,3.45,0.96,0,0.0,0.0,0.0,0,0,-1,0.0
19400,490506,1011.83,36.14,1.16,0.97,-0.52,-0.7,1.19,0.36,1.62,5.66,0,0.0,0.0,0.0,0,0,-1,0.0
19420,491006,1011.86,36.14,0.9,0.82,-0.52,-0.69,1.18,-0.74,0.89,-3.61,0,0.0,0.0,0.0,0,0,-1,0.0
19440,491506,1011.86,36.15,0.91,0.77,-0.54,-0.68,1.19,-0.31,0.65,-2.15,0,0.0,0.0,0.0,0,0,-1,0.0
19460,492006,1011.83,36.15,1.11,0.88,-0.54,-0.65,1.19,-0.13,0.77,-1.6,0,0.0,0.0,0.0,0,0,-1,0.0
19480,492506,1011.85,36.16,1.01,0.93,-0.55,-0.67,1.2,-0.68,0.04,-14.1,0,0.0,0.0,0.0,0,0,-1,0.0
19500,493006,1011.84,36.17,1.1,1.2,-0.56,-0.66,1.18,-0.31,1.2,3.52,0,0.0,0.0,0.0,0,0,-1,0.0
19520,493506,1011.83,36.17,1.17,0.97,-0.51,-0.69,1.18,0.73,1.56,14.32,0,0.0,0.0,0.0,0,0,-1,0.0
19540,494006,1011.88,36.18,0.74,0.62,-0.56,-0.65,1.19,-0.25,0.65,-0.74,0,0.0,0.0,0.0,0,0,-1,0.0
19560,494506,1011.86,36.18,0.94,0.81,-0.57,-0.63,1.19,-0.13,0.59,-3.43,0,0.0,0.0,0.0,0,0,-1,0.0
19580,495006,1011.86,36.19,0.92,0.78,-0.54,-0.66,1.18,-0.43,0.34,-4.71,0,0.0,0.0,0.0,0,0,-1,0.0
19600,495506,1011.87,36.19,0.83,0.97,-0.58,-0.64,1.2,-0.13,0.71,2.55,0,0.0,0.0,0.0,0,0,-1,0.0
19620,496006,1011.9,36.2,0.58,0.67,-0.53,-0.68,1.19,-0.19,0.59,1.88,0,0.0,0.0,0.0,0,0,-1,0.0
19640,496506,1011.9,36.2,0.61,1.0,-0.56,-0.64,1.19,-0.49,0.22,-4.77,0,0.0,0.0,0.0,0,0,-1,0.0
19660,497006,1011.88,36.2,0.72,0.95,-0.55,-0.65,1.19,0.36,1.01,3.28,0,0.0,0.0,0.0,0,0,-1,0.0
19680,497506,1011.85,36.21,0.99,0.95,-0.56,-0.64,1.18,-0.13,0.65,0.72,0,0.0,0.0,0.0,0,0,-1,0.0
19700,498006,1011.87,36.22,0.82,0.8,-0.56,-0.64,1.19,0.18,0.83,1.33,0,0.0,0.0,0.0,0,0,-1,0.0
19740,499006,1011.87,36.23,0.82,0.96,-0.56,-0.64,1.19,-0.31,0.53,-6.23,0,0.0,0.0,0.0,0,0,-1,0.0
19760,499506,1011.87,36.23,0.78,0.96,-0.54,-0.66,1.19,-0.31,0.4,1.82,0,0.0,0.0,0.0,0,0,-1,0.0
19780,500006,1011.85,36.24,0.95,1.2,-0.54,-0.67,1.16,0.24,1.07,4.68,0,0.0,0.0,0.0,0,0,-1,0.0
19800,500506,1011.86,36.24,0.91,0.78,-0.56,-0.63,1.18,-0.01,0.83,0.42,0,0.0,0.0,0.0,0,0,-1,0.0
19820,501006,1011.86,36.25,0.93,0.7,-0.54,-0.65,1.18,0.73,1.32,8.59,0,0.0,0.0,0.0,0,0,-1,0.0
19840,501506,1011.85,36.26,0.97,1.03,-0.55,-0.65,1.19,0.18,0.95,5.17,0,0.0,0.0,0.0,0,0,-1,0.0
19860,502006,1011.85,36.26,0.99,0.94,-0.55,-0.65,1.19,-0.68,-0.69,-20.19,0,0.0,0.0,0.0,0,0,-1,0.0
19880,502506,1011.87,36.27,0.78,0.83,-0.54,-0.65,1.17,-0.98,-0.57,-24.34,0,0.0,0.0,0.0,0,0,-1,0.0
19900,503006,1011.86,36.27,0.93,0.96,-0.58,-0.63,1.18,-1.41,-0.45,-15.07,0,0.0,0.0,0.0,0,0,-1,0.0
19920,503506,1011.86,36.28,0.93,1.02,-0.53,-0.67,1.18,-0.49,0.4,-5.99,0,0.0,0.0,0.0,0,0,-1,0.0
19940,504006,1011.86,36.28,0.86,0.82,-0.55,-0.63,1.17,0.05,1.2,12.24,0,0.0,0.0,0.0,0,0,-1,0.0
19960,504506,1011.86,36.29,0.93,0.95,-0.58,-0.61,1.19,-0.49,0.71,-0.5,0,0.0,0.0,0.0,0,0,-1,0.0
19980,505006,1011.89,36.29,0.65,0.55,-0.57,-0.63,1.18,-0.74,0.04,-10.87,0,0.0,0.0,0.0,0,0,-1,0.0
20000,505506,1011.87,36.3,0.78,0.82,-0.56,-0.64,1.18,0.05,0.89,9.07,0,0.0,0.0,0.0,0,0,-1,0.0
20020,506006,1011.87,36.31,0.86,0.69,-0.56,-0.64,1.19,0.79,1.68,17.18,0,0.0,0.0,0.0,0,0,-1,0.0
20040,506506,1011.87,36.31,0.81,0.94,-0.54,-0.66,1.19,0.18,0.95,5.6,0,0.0,0.0,0.0,0,0,-1,0.0
20060,507006,1011.9,36.31,0.57,0.88,-0.44,-0.77,1.2,0.91,1.56,21.02,0,0.0,0.0,0.0,0,0,-1,0.0
20080,507506,1011.9,36.32,0.58,0.85,-0.53,-0.69,1.19,-0.13,0.59,-4.46,0,0.0,0.0,0.0,0,0,-1,0.0
20100,508006,1011.86,36.33,0.91,1.02,-0.52,-0.7,1.19,-0.13,0.59,-0.68,0,0.0,0.0,0.0,0,0,-1,0.0
20120,508506,1011.85,36.32,0.95,1.0,-0.52,-0.7,1.19,-0.13,0.65,-0.68,0,0.0,0.0,0.0,0,0,-1,0.0
20140,509006,1011.86,36.34,0.87,0.83,-0.53,-0.68,1.2,-0.19,0.53,1.02,0,0.0,0.0,0.0,0,0,-1,0.0
20160,509506,1011.84,36.34,1.06,1.06,-0.52,-0.7,1.19,-0.07,0.65,-0.26,0,0.0,0.0,0.0,0,0,-1,0.0
20180,510006,1011.87,36.35,0.85,0.99,-0.52,-0.7,1.19,-0.13,0.65,-0.8,0,0.0,0.0,0.0,0,0,-1,0.0
20200,510506,1011.86,36.35,1.13,0.92,-0.52,-0.7,1.19,-0.13,0.59,-0.44,0,0.0,0.0,0.0,0,0,-1,0.0
20220,511006,1011.84,36.35,1.09,0.73,-0.52,-0.69,1.19,-0.13,0.53,-0.68,0,0.0,0.0,0.0,0,0,-1,0.0
20240,511506,1011.84,36.35,1.07,0.93,-0.52,-0.7,1.19,-0.07,0.65,-0.5,0,0.0,0.0,0.0,0,0,-1,0.0
20260,512006,1011.85,36.37,0.97,0.93,-0.52,-0.7,1.19,-0.19,0.59,-0.62,0,0.0,0.0,0.0,0,0,-1,0.0
20280,512506,1011.85,36.37,0.96,0.99,-0.52,-0.7,1.19,-0.07,0.59,-0.56,0,0.0,0.0,0.0,0,0,-1,0.0
23520,594152,1011.91,36.86,0.46,1.28,-2.34,-1.5,1.27,-0.13,0.71,-0.68,0,0.0,0.0,0.0,0,0,-1,0.0
23540,594654,1011.87,36.86,0.8,1.39,-2.34,-1.5,1.27,-0.19,0.65,-0.56,0,0.0,0.0,0.0,0,0,-1,0.0
23560,595163,1011.9,36.86,0.56,1.37,-2.34,-1.49,1.27,-0.13,0.71,-0.56,0,0.0,0.0,0.0,0,0,-1,0.0
23580,595665,1011.87,36.86,0.85,1.25,-2.32,-1.51,1.27,-0.25,-0.94,-21.48,0,0.0,0.0,0.0,0,0,-1,0.0
23600,596173,1011.86,36.86,0.89,1.31,-2.28,-1.64,1.28,-0.62,-1.36,-28.67,0,0.0,0.0,0.0,0,0,-1,0.0
23620,596675,1011.9,36.85,0.6,1.16,-2.26,-1.68,1.27,-0.13,0.71,0.29,0,0.0,0.0,0.0,0,0,-1,0.0
23640,597184,1011.88,36.85,0.76,1.38,-2.25,-1.7,1.3,0.12,0.59,-2.21,0,0.0,0.0,0.0,0,0,-1,0.0
23660,597684,1011.9,36.87,0.6,1.4,-2.28,-1.7,1.29,-0.49,0.16,-4.77,0,0.0,0.0,0.0,0,0,-1,0.0
23680,598187,1011.86,36.87,0.87,1.46,-2.21,-1.77,1.28,-0.49,0.04,-5.5,0,0.0,0.0,0.0,0,0,-1,0.0
23700,598693,1011.88,36.86,0.77,1.57,-2.21,-1.81,1.29,0.42,1.99,15.17,0,0.0,0.0,0.0,0,0,-1,0.0
23720,599202,1011.92,36.86,0.37,1.15,-2.16,-1.83,1.31,0.3,0.1,-9.89,0,0.0,0.0,0.0,0,0,-1,0.0
23740,599702,1011.89,36.86,0.66,1.34,-2.27,-1.66,1.31,0.54,4.79,53.28,0,0.0,0.0,0.0,0,0,-1,0.0
23760,600211,1011.89,36.86,0.69,1.34,-2.35,-1.48,1.25,-0.37,0.71,0.35,0,0.0,0.0,0.0,0,0,-1,0.0
23780,600711,1011.88,36.86,0.56,1.24,-2.34,-1.47,1.26,-0.13,0.65,-0.5,0,0.0,0.0,0.0,0,0,-1,0.0
23800,601220,1011.91,36.86,0.53,1.27,-2.34,-1.47,1.26,-0.07,0.59,-0.62,0,0.0,0.0,0.0,0,0,-1,0.0
23820,601720,1011.88,36.86,0.72,1.37,-2.35,-1.47,1.26,-0.13,0.65,-0.8,0,0.0,0.0,0.0,0,0,-1,0.0
23840,602228,1011.88,36.86,0.74,1.43,-2.34,-1.47,1.26,-0.13,0.59,-0.68,0,0.0,0.0,0.0,0,0,-1,0.0
23860,602728,1011.88,36.86,0.71,1.13,-2.34,-1.47,1.26,-0.19,0.59,-0.68,0,0.0,0.0,0.0,0,0,-1,0.0
23880,603237,1011.87,36.87,0.81,1.41,-2.35,-1.47,1.26,-0.25,0.65,-0.56,0,0.0,0.0,0.0,0,0,-1,0.0
23900,603737,1011.9,36.87,0.56,1.14,-2.35,-1.47,1.26,-0.13,0.71,-0.74,0,0.0,0.0,0.0,0,0,-1,0.0
23920,604242,1011.88,36.87,0.72,1.23,-2.34,-1.47,1.26,-0.07,0.65,-0.68,0,0.0,0.0,0.0,0,0,-1,0.0
23940,604746,1011.89,36.87,0.66,0.99,-2.35,-1.47,1.26,-0.25,0.59,-0.68,0,0.0,0.0,0.0,0,0,-1,0.0
23960,605255,1011.9,36.87,0.59,1.22,-2.34,-1.47,1.26,-0.19,0.65,-0.68,0,0.0,0.0,0.0,0,0,-1,0.0
23980,605755,1011.87,36.87,0.86,1.53,-2.35,-1.47,1.26,-0.19,0.71,-0.68,0,0.0,0.0,0.0,0,0,-1,0.0
24000,606264,1011.89,36.87,0.67,1.32,-2.34,-1.47,1.26,-0.13,0.65,-0.56,0,0.0,0.0,0.0,0,0,-1,0.0
24020,606764,1011.9,36.87,0.59,0.95,-2.34,-1.47,1.27,-0.13,0.59,-0.62,0,0.0,0.0,0.0,0,0,-1,0.0
24040,607273,1011.9,36.87,0.58,1.22,-2.34,-1.47,1.26,-0.07,0.65,-0.68,0,0.0,0.0,0.0,0,0,-1,0.0
24060,607773,1011.88,36.87,0.75,1.47,-2.35,-1.47,1.26,-0.19,0.65,-0.56,0,0.0,0.0,0.0,0,0,-1,0.0
24080,608281,1011.89,36.88,0.68,1.26,-2.35,-1.47,1.26,-0.25,0.59,-0.56,0,0.0,0.0,0.0,0,0,-1,0.0
24100,608781,1011.86,36.88,0.88,1.0,-2.34,-1.47,1.26,-0.13,0.65,-0.62,0,0.0,0.0,0.0,0,0,-1,0.0
24120,609290,1011.87,36.87,0.82,1.19,-2.35,-1.47,1.27,-0.19,0.71,-0.62,0,0.0,0.0,0.0,0,0,-1,0.0
24140,609790,1011.9,36.88,0.57,1.19,-2.34,-1.47,1.26,-0.19,0.59,-0.56,0,0.0,0.0,0.0,0,0,-1,0.0
24160,610297,1011.88,36.88,0.72,1.17,-2.34,-1.47,1.26,-0.13,0.65,-0.62,0,0.0,0.0,0.0,0,0,-1,0.0
24180,610799,1011.87,36.87,0.81,1.51,-2.35,-1.47,1.26,-0.13,0.53,-0.62,0,0.0,0.0,0.0,0,0,-1,0.0
24200,611307,1011.84,36.88,1.04,1.55,-2.35,-1.47,1.26,-0.19,0.59,-0.62,0,0.0,0.0,0.0,0,0,-1,0.0
24220,611807,1011.89,36.88,0.68,0.93,-2.35,-1.47,1.26,-0.13,0.65,-0.68,0,0.0,0.0,0.0,0,0,-1,0.0
24240,612316,1011.88,36.89,0.71,1.07,-2.34,-1.47,1.26,-0.25,0.71,-0.68,0,0.0,0.0,0.0,0,0,-1,0.0
24260,612816,1011.87,36.88,0.83,1.4,-2.34,-1.47,1.26,-0.13,0.71,-0.68,0,0.0,0.0,0.0,0,0,-1,0.0
24280,613324,1011.88,36.88,0.76,1.41,-2.34,-1.47,1.26,-0.19,0.53,-0.56,0,0.0,0.0,0.0,0,0,-1,0.0
24300,613824,1011.88,36.88,0.73,1.22,-2.26,-1.69,1.26,-2.93,-5.75,-82.76,0,0.0,0.0,0.0,0,0,-1,0.0
24320,614332,1011.86,36.88,0.92,1.34,-2.15,-1.81,1.28,0.3,-0.02,-13.18,0,0.0,0.0,0.0,0,0,-1,0.0
24340,614832,1011.94,36.89,0.27,0.74,-2.17,-1.89,1.3,-0.43,0.28,-4.83,0,0.0,0.0,0.0,0,0,-1,0.0
24360,615341,1011.92,36.89,0.43,1.44,-2.07,-1.94,1.31,-0.25,-0.02,-7.27,0,0.0,0.0,0.0,0,0,-1,0.0
24380,615841,1011.89,36.89,0.65,1.7,-2.11,-1.88,1.29,0.48,1.07,3.95,0,0.0,0.0,0.0,0,0,-1,0.0
24400,616350,1011.9,36.89,0.53,1.42,-2.08,-1.95,1.3,-0.01,0.46,-3.91,0,0.0,0.0,0.0,0,0,-1,0.0
28740,725810,1011.89,37.39,0.65,0.83,-2.01,-0.46,1.18,-0.19,0.53,-1.05,0,0.0,0.0,0.0,0,0,-1,0.0
28760,726319,1011.89,37.39,0.63,0.8,-2.01,-0.47,1.18,-0.25,0.53,-1.29,0,0.0,0.0,0.0,0,0,-1,0.0
28780,726819,1011.92,37.39,0.42,1.06,-2.01,-0.47,1.18,-0.01,0.83,2.18,0,0.0,0.0,0.0,0,0,-1,0.0
28800,727328,1011.87,37.39,0.8,0.94,-2.01,-0.47,1.18,0.05,0.77,1.27,0,0.0,0.0,0.0,0,0,-1,0.0
28840,728337,1011.89,37.4,0.67,0.83,-2.01,-0.46,1.18,-0.25,0.22,-4.77,0,0.0,0.0,0.0,0,0,-1,0.0
28860,728837,1011.92,37.41,0.44,0.66,-2.01,-0.47,1.17,-0.19,0.65,-1.11,0,0.0,0.0,0.0,0,0,-1,0.0
28880,729346,1011.88,37.41,0.74,0.83,-2.02,-0.48,1.18,-0.07,0.1,-4.4,0,0.0,0.0,0.0,0,0,-1,0.0
28900,729846,1011.9,37.41,0.53,1.02,-2.01,-0.46,1.18,-0.13,0.89,1.02,0,0.0,0.0,0.0,0,0,-1,0.0
28920,730355,1011.89,37.41,0.68,0.87,-2.01,-0.47,1.18,-0.31,0.34,-3.24,0,0.0,0.0,0.0,0,0,-1,0.0
28940,730855,1011.91,37.41,0.48,0.67,-2.01,-0.47,1.18,-0.19,0.65,-0.26,0,0.0,0.0,0.0,0,0,-1,0.0
28960,731364,1011.89,37.41,0.68,0.88,-2.02,-0.47,1.18,0.05,1.14,4.5,0,0.0,0.0,0.0,0,0,-1,0.0
28980,731864,1011.96,37.42,0.07,0.48,-2.01,-0.46,1.18,-0.13,0.4,-2.27,0,0.0,0.0,0.0,0,0,-1,0.0
29000,732373,1011.88,37.42,0.75,1.09,-2.01,-0.46,1.18,-0.19,0.71,-0.56,0,0.0,0.0,0.0,0,0,-1,0.0
29020,732873,1011.91,37.42,0.51,0.83,-2.0,-0.47,1.18,-0.13,0.95,2.79,0,0.0,0.0,0.0,0,0,-1,0.0
29040,733382,1011.89,37.42,0.66,0.98,-2.01,-0.47,1.17,-0.31,0.71,-0.44,0,0.0,0.0,0.0,0,0,-1,0.0
29060,733882,1011.88,37.42,0.71,1.05,-2.0,-0.46,1.18,-0.07,0.77,1.63,0,0.0,0.0,0.0,0,0,-1,0.0
29080,734391,1011.91,37.42,0.52,0.82,-2.02,-0.47,1.17,-0.25,0.46,-3.12,0,0.0,0.0,0.0,0,0,-1,0.0
29100,734891,1011.89,37.43,0.64,0.76,-2.02,-0.47,1.18,-0.07,0.71,0.96,0,0.0,0.0,0.0,0,0,-1,0.0
29120,735400,1011.89,37.43,0.62,0.85,-2.02,-0.47,1.18,-0.01,0.4,-2.15,0,0.0,0.0,0.0,0,0,-1,0.0
29140,735900,1011.88,37.43,0.77,1.03,-2.02,-0.47,1.18,-0.31,0.95,-0.01,0,0.0,0.0,0.0,0,0,-1,0.0
29160,736409,1011.9,37.44,0.6,0.92,-2.02,-0.47,1.18,-0.01,0.22,-3.06,0,0.0,0.0,0.0,0,0,-1,0.0
29180,736909,1011.89,37.44,0.63,0.63,-2.01,-0.46,1.18,-0.25,0.71,-0.44,0,0.0,0.0,0.0,0,0,-1,0.0
29200,737418,1011.91,37.44,0.46,0.7,-2.01,-0.47,1.18,-0.13,0.4,-1.48,0,0.0,0.0,0.0,0,0,-1,0.0
29220,737918,1011.89,37.44,0.68,1.03,-2.02,-0.47,1.18,-0.13,0.53,-0.68,0,0.0,0.0,0.0,0,0,-1,0.0
29240,738427,1011.88,37.45,0.73,0.91,-2.01,-0.46,1.18,-0.19,0.4,-2.82,0,0.0,0.0,0.0,0,0,-1,0.0
29260,738927,1011.86,37.44,0.88,1.03,-2.01,-0.47,1.18,-0.19,0.4,-3.24,0,0.0,0.0,0.0,0,0,-1,0.0
29280,739436,1011.89,37.45,0.64,0.92,-2.01,-0.47,1.18,-0.13,0.46,-2.21,0,0.0,0.0,0.0,0,0,-1,0.0
29300,739936,1011.88,37.45,0.72,0.86,-2.04,-0.48,1.18,-0.55,-0.15,-11.23,0,0.0,0.0,0.0,0,0,-1,0.0
29320,740445,1011.9,37.45,0.54,0.79,-2.13,-0.58,1.19,0.3,2.72,20.48,0,0.0,0.0,0.0,0,0,-1,0.0
29340,740945,1011.91,37.45,0.51,0.89,-2.1,-0.55,1.18,-0.07,0.71,1.82,0,0.0,0.0,0.0,0,0,-1,0.0
29360,741454,1011.9,37.46,0.59,0.89,-2.09,-0.54,1.19,-0.43,-0.82,-16.84,0,0.0,0.0,0.0,0,0,-1,0.0
29380,741954,1011.89,37.46,0.68,0.94,-2.14,-0.58,1.19,-0.68,-0.45,-13.67,0,0.0,0.0,0.0,0,0,-1,0.0
29400,742463,1011.93,37.46,0.32,0.76,-2.07,-0.52,1.18,-0.55,-0.69,-15.26,0,0.0,0.0,0.0,0,0,-1,0.0
29420,742963,1011.89,37.46,0.65,1.04,-2.07,-0.52,1.18,0.79,4.0,34.87,0,0.0,0.0,0.0,0,0,-1,0.0
29440,743472,1011.89,37.47,0.69,1.05,-2.13,-0.59,1.2,-0.01,1.07,4.62,0,0.0,0.0,0.0,0,0,-1,0.0
29460,743972,1011.9,37.47,0.57,0.85,-2.13,-0.59,1.19,0.6,-0.27,-2.82,0,0.0,0.0,0.0,0,0,-1,0.0
29480,744481,1011.89,37.47,0.63,0.67,-2.17,-0.62,1.19,0.12,1.44,7.55,0,0.0,0.0,0.0,0,0,-1,0.0
29500,744982,1011.91,37.47,0.49,0.9,-2.1,-0.56,1.19,-0.25,-0.94,-14.65,0,0.0,0.0,0.0,0,0,-1,0.0
29520,745490,1011.88,37.48,0.73,1.17,-2.08,-0.52,1.18,0.42,2.29,17.92,0,0.0,0.0,0.0,0,0,-1,0.0
29540,745991,1011.88,37.48,0.7,0.95,-2.06,-0.51,1.18,-0.19,0.22,-4.89,0,0.0,0.0,0.0,0,0,-1,0.0
29560,746499,1011.9,37.48,0.54,0.56,-2.03,-0.48,1.18,-0.37,0.28,-5.38,0,0.0,0.0,0.0,0,0,-1,0.0
29580,747000,1011.88,37.48,0.74,1.04,-2.05,-0.5,1.18,-0.01,0.65,0.66,0,0.0,0.0,0.0,0,0,-1,0.0
29600,747507,1011.91,37.49,0.46,0.96,-2.05,-0.5,1.18,0.12,1.87,12.98,0,0.0,0.0,0.0,0,0,-1,0.0
29620,748007,1011.88,37.48,0.76,0.79,-2.09,-0.54,1.19,-1.16,-1.24,-24.34,0,0.0,0.0,0.0,0,0,-1,0.0
29640,748516,1011.88,37.49,0.75,0.97,-1.97,-0.42,1.17,-0.98,-1.24,-26.23,0,0.0,0.0,0.0,0,0,-1,0.0
34560,872669,1011.9,37.96,0.56,1.1,-2.03,-0.49,1.17,-0.19,0.53,-1.54,0,0.0,0.0,0.0,0,0,-1,0.0
34660,875197,1011.87,37.96,0.83,0.88,-2.03,-0.49,1.17,-0.07,0.71,-0.13,0,0.0,0.0,0.0,0,0,-1,0.0
34680,875697,1011.92,37.97,0.41,0.69,-2.03,-0.48,1.17,-0.19,0.77,-0.01,0,0.0,0.0,0.0,0,0,-1,0.0
34700,876206,1011.91,37.97,0.48,0.6,-2.03,-0.49,1.17,-0.13,0.59,-1.54,0,0.0,0.0,0.0,0,0,-1,0.0
34720,876706,1011.93,37.98,0.3,0.67,-2.03,-0.49,1.17,-0.13,0.53,-0.01,0,0.0,0.0,0.0,0,0,-1,0.0
34740,877216,1011.92,37.97,0.38,0.68,-2.03,-0.48,1.17,-0.19,0.53,-0.87,0,0.0,0.0,0.0,0,0,-1,0.0
34760,877716,1011.9,37.97,0.57,0.91,-2.03,-0.48,1.17,-0.19,0.53,-1.48,0,0.0,0.0,0.0,0,0,-1,0.0
34780,878225,1011.92,37.98,0.39,0.82,-2.03,-0.48,1.17,-0.25,0.59,-0.8,0,0.0,0.0,0.0,0,0,-1,0.0
34800,878725,1011.93,37.98,0.29,0.76,-2.03,-0.48,1.17,-0.13,0.77,0.05,0,0.0,0.0,0.0,0,0,-1,0.0
34820,879234,1011.93,37.98,0.34,0.58,-2.03,-0.48,1.17,-0.13,0.53,-1.11,0,0.0,0.0,0.0,0,0,-1,0.0
34840,879734,1011.91,37.98,0.45,0.78,-2.03,-0.49,1.17,-0.13,0.59,-0.38,0,0.0,0.0,0.0,0,0,-1,0.0
34860,880238,1011.9,37.98,0.59,1.07,-2.03,-0.48,1.17,-0.13,0.65,-0.68,0,0.0,0.0,0.0,0,0,-1,0.0
34880,880743,1011.87,37.99,0.79,1.1,-2.03,-0.48,1.17,-0.01,0.59,-0.5,0,0.0,0.0,0.0,0,0,-1,0.0
34900,881252,1011.89,37.98,0.61,0.86,-2.03,-0.49,1.17,-0.19,0.77,0.05,0,0.0,0.0,0.0,0,0,-1,0.0
34920,881752,1011.91,37.98,0.49,0.84,-2.03,-0.48,1.17,-0.13,0.59,0.29,0,0.0,0.0,0.0,0,0,-1,0.0
34940,882261,1011.95,37.99,0.12,0.48,-2.03,-0.49,1.17,-0.31,0.59,-1.41,0,0.0,0.0,0.0,0,0,-1,0.0
34960,882761,1011.93,37.99,0.32,0.79,-2.03,-0.48,1.17,-0.13,0.46,-1.6,0,0.0,0.0,0.0,0,0,-1,0.0
34980,883271,1011.93,38.0,0.36,0.93,-2.03,-0.49,1.17,-0.19,0.71,0.29,0,0.0,0.0,0.0,0,0,-1,0.0
35000,883771,1011.92,37.99,0.37,0.78,-2.03,-0.48,1.17,-0.13,0.53,-1.66,0,0.0,0.0,0.0,0,0,-1,0.0
35020,884280,1011.92,38.0,0.4,0.86,-2.03,-0.48,1.17,-0.13,0.65,-0.19,0,0.0,0.0,0.0,0,0,-1,0.0
35040,884780,1011.86,38.0,0.88,1.12,-2.03,-0.49,1.17,-0.13,0.53,-0.68,0,0.0,0.0,0.0,0,0,-1,0.0
35060,885289,1011.93,37.99,0.36,0.7,-2.03,-0.49,1.17,-0.25,0.71,0.23,0,0.0,0.0,0.0,0,0,-1,0.0
35080,885789,1011.9,38.0,0.56,0.92,-2.03,-0.48,1.17,-0.19,0.59,-0.19,0,0.0,0.0,0.0,0,0,-1,0.0
35100,886296,1011.93,38.01,0.32,1.0,-2.03,-0.48,1.17,-0.25,0.46,-0.5,0,0.0,0.0,0.0,0,0,-1,0.0
35120,886799,1011.9,38.01,0.53,0.72,-2.03,-0.48,1.17,-0.07,0.53,0.29,0,0.0,0.0,0.0,0,0,-1,0.0
35140,887308,1011.9,38.01,0.58,1.01,-2.02,-0.47,1.17,0.24,0.71,0.78,0,0.0,0.0,0.0,0,0,-1,0.0
35160,887808,1011.88,38.0,0.75,0.91,-2.03,-0.48,1.18,-0.49,1.56,3.65,0,0.0,0.0,0.0,0,0,-1,0.0
35180,888318,1011.91,38.0,0.44,0.63,-2.03,-0.48,1.17,0.05,-0.51,-7.02,0,0.0,0.0,0.0,0,0,-1,0.0
35200,888818,1011.95,38.01,0.16,0.62,-2.02,-0.48,1.17,-0.43,0.46,-4.77,0,0.0,0.0,0.0,0,0,-1,0.0
35220,889327,1011.94,38.01,0.24,0.56,-2.03,-0.48,1.17,1.52,-1.3,-2.88,0,0.0,0.0,0.0,0,0,-1,0.0
35240,889827,1011.93,38.01,0.32,0.85,-2.03,-0.48,1.17,-0.07,-0.27,-2.63,0,0.0,0.0,0.0,0,0,-1,0.0
35260,890336,1011.91,38.02,0.48,1.14,-2.03,-0.5,1.14,0.97,-1.3,-3.55,0,0.0,0.0,0.0,0,0,-1,0.0
35280,890836,1011.92,38.01,0.39,0.78,-2.03,-0.51,1.18,-2.69,-0.08,-1.41,0,0.0,0.0,0.0,0,0,-1,0.0
35300,891346,1011.95,38.02,0.14,0.56,-2.04,-0.49,1.14,-0.62,-0.21,-7.02,0,0.0,0.0,0.0,0,0,-1,0.0
35320,891846,1011.92,38.02,0.4,0.55,-2.04,-0.47,1.18,0.24,1.2,11.88,0,0.0,0.0,0.0,0,0,-1,0.0
35340,892355,1011.97,38.02,-0.04,0.68,-2.03,-0.48,1.18,-1.16,-1.24,-2.21,0,0.0,0.0,0.0,0,0,-1,0.0
35360,892857,1011.92,38.02,0.37,0.83,-2.04,-0.48,1.17,-1.47,-0.69,-1.48,0,0.0,0.0,0.0,0,0,-1,0.0
35380,893366,1011.93,38.02,0.54,0.85,-2.05,-0.51,1.18,-0.01,2.54,3.28,0,0.0,0.0,0.0,0,0,-1,0.0
35400,893866,1011.92,38.02,0.4,1.01,-2.03,-0.48,1.18,-0.19,1.14,0.23,0,0.0,0.0,0.0,0,0,-1,0.0
35420,894375,1011.92,38.03,0.41,0.98,-2.03,-0.48,1.18,-0.25,0.77,-0.38,0,0.0,0.0,0.0,0,0,-1,0.0
35440,894875,1011.94,38.03,0.24,0.62,-2.05,-0.5,1.17,-0.31,0.28,-6.6,0,0.0,0.0,0.0,0,0,-1,0.0
35460,895384,1011.9,38.03,0.53,0.79,-2.02,-0.47,1.17,-0.01,0.89,0.11,0,0.0,0.0,0.0,0,0,-1,0.0
35480,895884,1011.95,38.04,0.14,0.82,-1.98,-0.44,1.17,1.7,1.68,23.34,0,0.0,0.0,0.0,0,0,-1,0.0
35500,896394,1011.93,38.03,0.33,0.75,-1.98,-0.44,1.18,0.12,1.38,9.38,0,0.0,0.0,0.0,0,0,-1,0.0
35520,896894,1011.93,38.03,0.35,0.77,-2.01,-0.44,1.16,-0.25,2.17,4.56,0,0.0,0.0,0.0,0,0,-1,0.0
35540,897404,1011.89,38.04,0.66,1.14,-1.98,-0.44,1.17,-0.43,0.34,-4.71,0,0.0,0.0,0.0,0,0,-1,0.0
35560,897904,1011.89,38.04,0.69,0.76,-1.98,-0.44,1.16,-0.68,-0.39,-15.32,0,0.0,0.0,0.0,0,0,-1,0.0
39880,1006943,1011.91,38.31,0.51,0.79,-2.11,-0.55,1.18,-0.07,0.53,-0.68,0,0.0,0.0,0.0,0,0,-1,0.0
39960,1008961,1011.9,38.32,0.53,0.9,-2.1,-0.55,1.17,0.12,1.14,-0.01,0,0.0,0.0,0.0,0,0,-1,0.0
39980,1009471,1011.92,38.32,0.4,0.94,-2.1,-0.55,1.17,0.05,1.32,4.56,0,0.0,0.0,0.0,0,0,-1,0.0
40000,1009971,1011.92,38.32,0.44,0.9,-2.11,-0.56,1.15,-0.13,1.75,0.6,0,0.0,0.0,0.0,0,0,-1,0.0
40020,1010480,1011.9,38.32,0.61,0.75,-2.1,-0.55,1.16,0.73,1.38,-4.16,0,0.0,0.0,0.0,0,0,-1,0.0
40040,1010981,1011.93,38.32,0.31,0.43,-2.11,-0.56,1.16,-0.19,0.28,-0.8,0,0.0,0.0,0.0,0,0,-1,0.0
40060,1011490,1011.91,38.33,0.51,1.17,-2.1,-0.56,1.17,-0.55,0.22,-0.87,0,0.0,0.0,0.0,0,0,-1,0.0
40080,1011990,1011.89,38.33,0.63,0.89,-2.06,-0.51,1.15,1.34,0.1,4.26,0,0.0,0.0,0.0,0,0,-1,0.0
40100,1012500,1011.9,38.32,0.53,0.71,-2.1,-0.55,1.13,0.24,-1.18,-0.56,0,0.0,0.0,0.0,0,0,-1,0.0
40120,1013001,1011.91,38.32,0.47,0.69,-2.11,-0.56,1.18,-0.43,1.2,-0.01,0,0.0,0.0,0.0,0,0,-1,0.0
40140,1013509,1011.9,38.33,0.6,1.02,-2.11,-0.56,1.17,0.05,0.59,-1.05,0,0.0,0.0,0.0,0,0,-1,0.0
40160,1014011,1011.89,38.33,0.66,0.98,-2.11,-0.55,1.17,-0.13,0.77,-0.5,0,0.0,0.0,0.0,0,0,-1,0.0
40180,1014519,1011.91,38.33,0.46,0.68,-2.11,-0.56,1.17,-0.19,0.77,-0.56,0,0.0,0.0,0.0,0,0,-1,0.0
40200,1015021,1011.92,38.33,0.44,0.71,-2.1,-0.55,1.17,-0.01,0.59,-0.38,0,0.0,0.0,0.0,0,0,-1,0.0
40220,1015528,1011.88,38.33,0.71,0.91,-2.1,-0.55,1.17,-0.13,0.46,-0.56,0,0.0,0.0,0.0,0,0,-1,0.0
40240,1016030,1011.89,38.33,0.61,0.91,-2.1,-0.55,1.17,-0.13,0.53,-0.8,0,0.0,0.0,0.0,0,0,-1,0.0
40260,1016537,1011.87,38.34,0.82,0.94,-2.11,-0.56,1.17,-0.13,0.53,-0.8,0,0.0,0.0,0.0,0,0,-1,0.0
40280,1017040,1011.87,38.33,0.81,0.81,-2.11,-0.56,1.17,-0.19,0.65,-0.62,0,0.0,0.0,0.0,0,0,-1,0.0
40300,1017546,1011.91,38.33,0.52,0.74,-2.1,-0.55,1.17,-0.07,0.59,-0.68,0,0.0,0.0,0.0,0,0,-1,0.0
40320,1018046,1011.89,38.34,0.67,0.78,-2.11,-0.56,1.17,-0.13,0.59,-0.8,0,0.0,0.0,0.0,0,0,-1,0.0
40340,1018556,1011.92,38.34,0.44,0.48,-2.11,-0.55,1.17,-0.13,0.53,-0.62,0,0.0,0.0,0.0,0,0,-1,0.0
40360,1019059,1011.91,38.35,0.53,0.83,-2.1,-0.55,1.17,-0.07,0.65,-0.87,0,0.0,0.0,0.0,0,0,-1,0.0
40380,1019565,1011.89,38.34,0.64,0.84,-2.11,-0.56,1.17,-0.43,0.65,-0.74,0,0.0,0.0,0.0,0,0,-1,0.0
40400,1020069,1011.91,38.34,0.51,0.91,-2.1,-0.55,1.17,-0.01,0.59,-0.56,0,0.0,0.0,0.0,0,0,-1,0.0
40420,1020574,1011.92,38.34,0.38,0.7,-2.11,-0.56,1.17,-0.19,0.65,-0.56,0,0.0,0.0,0.0,0,0,-1,0.0
40440,1021078,1011.89,38.34,0.64,0.92,-2.11,-0.56,1.16,-0.13,0.71,-0.62,0,0.0,0.0,0.0,0,0,-1,0.0
40460,1021583,1011.88,38.34,0.75,1.08,-2.11,-0.55,1.16,-0.25,0.53,-0.56,0,0.0,0.0,0.0,0,0,-1,0.0
40480,1022088,1011.87,38.34,0.81,0.92,-2.11,-0.56,1.17,-0.19,0.65,-0.8,0,0.0,0.0,0.0,0,0,-1,0.0
40500,1022593,1011.89,38.34,0.64,0.68,-2.11,-0.55,1.17,-0.19,0.65,-0.56,0,0.0,0.0,0.0,0,0,-1,0.0
40520,1023098,1011.92,38.35,0.39,0.63,-2.1,-0.55,1.17,-0.13,0.65,-0.62,0,0.0,0.0,0.0,0,0,-1,0.0
40540,1023602,1011.91,38.34,0.51,0.74,-2.11,-0.55,1.17,-0.19,0.59,-0.74,0,0.0,0.0,0.0,0,0,-1,0.0
40560,1024102,1011.93,38.35,0.28,0.62,-2.11,-0.55,1.17,-0.19,0.71,-0.68,0,0.0,0.0,0.0,0,0,-1,0.0
40580,1024611,1011.92,38.35,0.42,0.79,-2.11,-0.55,1.17,-0.13,0.65,-0.68,0,0.0,0.0,0.0,0,0,-1,0.0
40600,1025117,1011.87,38.34,0.79,1.12,-2.11,-0.55,1.17,-0.07,0.59,-0.62,0,0.0,0.0,0.0,0,0,-1,0.0
40620,1025621,1011.92,38.36,0.41,0.82,-2.11,-0.56,1.17,-0.13,0.59,-0.62,0,0.0,0.0,0.0,0,0,-1,0.0
40640,1026127,1011.88,38.35,0.74,1.0,-2.11,-0.55,1.17,-0.07,0.59,-0.56,0,0.0,0.0,0.0,0,0,-1,0.0
40660,1026630,1011.91,38.35,0.49,0.66,-2.11,-0.55,1.17,-0.19,0.71,-0.62,0,0.0,0.0,0.0,0,0,-1,0.0
40680,1027136,1011.9,38.35,0.57,0.78,-2.11,-0.56,1.17,-0.07,0.53,-0.74,0,0.0,0.0,0.0,0,0,-1,0.0
40700,1027639,1011.89,38.36,0.65,0.94,-2.11,-0.55,1.17,-0.13,0.59,-0.74,0,0.0,0.0,0.0,0,0,-1,0.0
40720,1028146,1011.87,38.36,0.84,0.94,-2.1,-0.55,1.17,-0.19,0.59,-0.74,0,0.0,0.0,0.0,0,0,-1,0.0
40740,1028648,1011.87,38.35,0.78,0.82,-2.11,-0.55,1.17,-0.07,0.65,-0.8,0,0.0,0.0,0.0,0,0,-1,0.0
40760,1029155,1011.89,38.35,0.64,0.84,-2.11,-0.55,1.17,-0.19,0.71,-0.5,0,0.0,0.0,0.0,0,0,-1,0.0
40780,1029657,1011.91,38.36,0.48,0.7,-2.11,-0.56,1.17,-0.31,0.59,-0.74,0,0.0,0.0,0.0,0,0,-1,0.0
40800,1030158,1011.88,38.36,0.7,0.65,-2.1,-0.56,1.17,-0.13,0.65,-0.68,0,0.0,0.0,0.0,0,0,-1,0.0
